<?xml version="1.0" encoding="UTF-8"?>
<MolecularDefinition xmlns="http://hl7.org/fhir">
    <id value="example-allelesliced-cyp2c19-1016-cont"/>
    <contained>
      <DocumentReference>
        <id value="example-genomicfile-nm0007694"/>

        <identifier>
          <system value="http://www.somesystemabc.net/identifiers/files"/>
          <value value="11111"/>
        </identifier>
        <status value="current"/>
        <docStatus value="preliminary"/>
        <description value="(CYP2C19), mRNA"/>
        <securityLabel>
          <coding>
            <system value="http://terminology.hl7.org/CodeSystem/v3-Confidentiality"/>
            <code value="R"/>
            <display value="Restricted"/>
          </coding>
        </securityLabel>
        <content>
          <attachment>
            <contentType value="text/html"/>
            <url value="https://www.ncbi.nlm.nih.gov/nuccore/NM_000769.4?report=fasta"/>
            <title value="Homo sapiens cytochrome P450 family 2 subfamily C member 19 (CYP2C19), mRNA"/>
          </attachment>
        </content>
      </DocumentReference>
    </contained>
    <contained>
      <MolecularDefinition>
          <id value="example-sequence-nm0007694-url"/>
          <moleculeType>
              <coding>
                  <system value="http://hl7.org/fhir/sequence-type"/>
                  <code value="dna"/>
                  <display value="DNA Sequence"/>
              </coding>
          </moleculeType>
          <representation>
              <resolvable>
                  <reference value="#example-genomicfile-nm0007694"/>
              </resolvable>
          </representation>
      </MolecularDefinition>
    </contained>
    <moleculeType>
        <coding>
            <system value="http://hl7.org/fhir/sequence-type"/>
            <code value="dna"/>
            <display value="DNA Sequence"/>
        </coding>
    </moleculeType>
    <location>
        <sequenceLocation>
            <sequenceContext>
                <reference value="#example-sequence-nm0007694-url"/>
                <type value="MolecularDefinition"/>
                <display value="Starting Sequence Resource: (CYP2C19), mRNA, NM_000769.4"/>
            </sequenceContext>
            <coordinateInterval>
                <coordinateSystem>
                    <system>
                        <coding>
                            <system value="http://loinc.org"/>
                            <code value="LA30102-0"/>
                            <display value="1-based character counting"/>
                        </coding>
                        <text value="1-based character counting"/>
                    </system>
                </coordinateSystem>
                <startQuantity>
                    <value value="1016"/>
                </startQuantity>
            </coordinateInterval>
        </sequenceLocation>
    </location>
    <representation>
        <focus>
            <coding>
                <code value="allele-state"/>
                <display value="Allele State"/>
            </coding>
        </focus>
        <code>
            <coding>
                <system value="https://www.pharmvar.org"/>
                <code value="*1"/>
                <display value="*1"/>
            </coding>
        </code>
        <literal>
            <value value="G"/>
        </literal>
    </representation>
    <representation>
        <focus>
            <coding>
                <code value="context-state"/>
                <display value="Context State"/>
            </coding>
        </focus>
        <literal>
            <value value="A"/>
        </literal>
    </representation>
</MolecularDefinition>